Run,Cue,Jitter,Eval,runLooper.thisRepN,runLooper.thisTrialN,runLooper.thisN,runLooper.thisIndex,trials.thisRepN,trials.thisTrialN,trials.thisN,trials.thisIndex,advanceScreen.keys,advanceScreen.rt,Prediction_Response.keys,Prediction_Response.rt,Version,frameRate,expName,date,mriMode,Subject,
Run1,stim/58_smile_edited.jpg,4.0,No,0,0,0,0,0,0,0,0,space,2.36763752254,2,1.00706471892,1A,59.9674170505,Rej_Discount,2019_Mar_08_1254,on,Rej_02,
Run1,stim/cc_11_edited.jpg,1.5,Yes,0,0,0,0,0,1,1,1,,,1,1.13923638833,1A,59.9674170505,Rej_Discount,2019_Mar_08_1254,on,Rej_02,
Run1,stim/cc_22_edited.jpg,4.5,Yes,0,0,0,0,0,2,2,2,,,2,0.889715119058,1A,59.9674170505,Rej_Discount,2019_Mar_08_1254,on,Rej_02,
Run1,stim/cc_9_edited.jpg,2.5,No,0,0,0,0,0,3,3,3,,,1,0.831039541588,1A,59.9674170505,Rej_Discount,2019_Mar_08_1254,on,Rej_02,
Run1,stim/edited_63_smile.jpg,3.0,Yes,0,0,0,0,0,4,4,4,,,2,1.05486034934,1A,59.9674170505,Rej_Discount,2019_Mar_08_1254,on,Rej_02,
Run1,stim/EMBfemale21-4happy_Edited.jpg,3.0,Yes,0,0,0,0,0,5,5,5,,,1,1.37392128133,1A,59.9674170505,Rej_Discount,2019_Mar_08_1254,on,Rej_02,
Run1,stim/EMImale21-2happy_edited.jpg,3.5,No,0,0,0,0,0,6,6,6,,,2,1.02472387259,1A,59.9674170505,Rej_Discount,2019_Mar_08_1254,on,Rej_02,
Run1,stim/EMImale24-3happy_edited.jpg,2.0,No,0,0,0,0,0,7,7,7,,,2,1.03963644767,1A,59.9674170505,Rej_Discount,2019_Mar_08_1254,on,Rej_02,
Run1,stim/EMImale28happy_edited.jpg,4.0,No,0,0,0,0,0,8,8,8,,,2,1.23629035544,1A,59.9674170505,Rej_Discount,2019_Mar_08_1254,on,Rej_02,
Run1,stim/EMWfemale22-2happy_Edited.jpg,4.0,Yes,0,0,0,0,0,9,9,9,,,1,0.90990998276,1A,59.9674170505,Rej_Discount,2019_Mar_08_1254,on,Rej_02,
Run1,stim/EMWmale23-2happy_edited.jpg,2.0,No,0,0,0,0,0,10,10,10,,,2,1.03806364187,1A,59.9674170505,Rej_Discount,2019_Mar_08_1254,on,Rej_02,
Run1,stim/Silk_Rudick_F25_edited.jpg,3.5,Yes,0,0,0,0,0,11,11,11,,,2,0.994052449045,1A,59.9674170505,Rej_Discount,2019_Mar_08_1254,on,Rej_02,
Run1,stim/Female_Creative_Commons_Stockvault_10.jpg,2.0,No,0,0,0,0,0,12,12,12,,,2,0.894255946539,1A,59.9674170505,Rej_Discount,2019_Mar_08_1254,on,Rej_02,
Run1,stim/Female_Creative_Commons_Stockvault_16.jpg,2.5,No,0,0,0,0,0,13,13,13,,,2,1.11353530478,1A,59.9674170505,Rej_Discount,2019_Mar_08_1254,on,Rej_02,
Run1,stim/Female_Creative_Commons_Stockvault_18.jpg,4.0,No,0,0,0,0,0,14,14,14,,,1,0.895181528909,1A,59.9674170505,Rej_Discount,2019_Mar_08_1254,on,Rej_02,
Run1,stim/Female_Creative_Commons_Stockvault_20.jpg,4.5,Yes,0,0,0,0,0,15,15,15,,,2,0.955108633078,1A,59.9674170505,Rej_Discount,2019_Mar_08_1254,on,Rej_02,
Run1,stim/Female_Creative_Commons_Stockvault_5.jpg,2.0,No,0,0,0,0,0,16,16,16,,,2,0.949298862026,1A,59.9674170505,Rej_Discount,2019_Mar_08_1254,on,Rej_02,
Run1,stim/Silk_Stroud_1189_edited.jpg,1.5,No,0,0,0,0,0,17,17,17,,,1,0.794488679499,1A,59.9674170505,Rej_Discount,2019_Mar_08_1254,on,Rej_02,
Run1,stim/Silk_Stroud_1190_edited.jpg,2.5,No,0,0,0,0,0,18,18,18,,,2,0.833509316317,1A,59.9674170505,Rej_Discount,2019_Mar_08_1254,on,Rej_02,
Run1,stim/WBfemale19happy_edited.jpg,3.0,No,0,0,0,0,0,19,19,19,,,2,1.27148270147,1A,59.9674170505,Rej_Discount,2019_Mar_08_1254,on,Rej_02,
Run1,stim/WIfemale22happy_edited.jpg,4.0,No,0,0,0,0,0,20,20,20,,,2,0.840705594828,1A,59.9674170505,Rej_Discount,2019_Mar_08_1254,on,Rej_02,
Run1,stim/WWfemale22-2happy_edited.jpg,3.0,Yes,0,0,0,0,0,21,21,21,,,1,1.07913013918,1A,59.9674170505,Rej_Discount,2019_Mar_08_1254,on,Rej_02,
Run1,stim/WWfemale22happy_edited.jpg,2.0,Yes,0,0,0,0,0,22,22,22,,,1,0.844377755791,1A,59.9674170505,Rej_Discount,2019_Mar_08_1254,on,Rej_02,
Run1,stim/Flicker_2_cc30_edited.jpg,4.0,No,0,0,0,0,0,23,23,23,,,1,1.07529313996,1A,59.9674170505,Rej_Discount,2019_Mar_08_1254,on,Rej_02,
Run1,stim/IMG_1094_edited.jpg,4.0,No,0,0,0,0,0,24,24,24,,,2,1.18540198608,1A,59.9674170505,Rej_Discount,2019_Mar_08_1254,on,Rej_02,
Run1,stim/M27_edited.jpg,2.0,No,0,0,0,0,0,25,25,25,,,2,0.988942463049,1A,59.9674170505,Rej_Discount,2019_Mar_08_1254,on,Rej_02,
Run1,stim/Male_Creative_Commons_Stockvault_1.jpg,2.0,No,0,0,0,0,0,26,26,26,,,1,1.62085396792,1A,59.9674170505,Rej_Discount,2019_Mar_08_1254,on,Rej_02,
Run1,stim/WWmale23-6happy_edited.jpg,2.0,No,0,0,0,0,0,27,27,27,,,2,0.898262760269,1A,59.9674170505,Rej_Discount,2019_Mar_08_1254,on,Rej_02,
Run1,stim/pitt-20_edited.jpg,3.5,No,0,0,0,0,0,28,28,28,,,2,0.697080776656,1A,59.9674170505,Rej_Discount,2019_Mar_08_1254,on,Rej_02,
Run1,stim/Silk_Rudick_F22_edited.jpg,3.0,Yes,0,0,0,0,0,29,29,29,,,1,0.993393096014,1A,59.9674170505,Rej_Discount,2019_Mar_08_1254,on,Rej_02,
Run1,stim/Silk_Rudick_F23_edited.jpg,3.5,No,0,0,0,0,0,30,30,30,,,2,0.916233240536,1A,59.9674170505,Rej_Discount,2019_Mar_08_1254,on,Rej_02,
Run1,stim/Silk_Rudick_pitt-2_edited.jpg,5.5,Yes,0,0,0,0,0,31,31,31,,,2,0.763617583951,1A,59.9674170505,Rej_Discount,2019_Mar_08_1254,on,Rej_02,
Run1,stim/Silk_Rudick_pitt-6_edited.jpg,3.0,No,0,0,0,0,0,32,32,32,,,2,0.913506877954,1A,59.9674170505,Rej_Discount,2019_Mar_08_1254,on,Rej_02,
Run1,stim/WImale22-3_edited.jpg,4.0,Yes,0,0,0,0,0,33,33,33,,,2,0.755647809687,1A,59.9674170505,Rej_Discount,2019_Mar_08_1254,on,Rej_02,
Run1,stim/WImale22happy_edited.jpg,3.0,No,0,0,0,0,0,34,34,34,,,2,1.03771312731,1A,59.9674170505,Rej_Discount,2019_Mar_08_1254,on,Rej_02,
Run1,stim/WImale23-2happy_edited.jpg,2.0,No,0,0,0,0,0,35,35,35,,,2,1.57621359057,1A,59.9674170505,Rej_Discount,2019_Mar_08_1254,on,Rej_02,
Run1,stim/WImale23happy_Edited.jpg,2.5,No,0,0,0,0,0,36,36,36,,,2,0.772843239127,1A,59.9674170505,Rej_Discount,2019_Mar_08_1254,on,Rej_02,
Run1,stim/WWmale22happy_edited.jpg,3.5,Yes,0,0,0,0,0,37,37,37,,,1,1.21921000176,1A,59.9674170505,Rej_Discount,2019_Mar_08_1254,on,Rej_02,
Run1,stim/WWmale23-4happy_edited.jpg,3.5,Yes,0,0,0,0,0,38,38,38,,,1,1.15591335479,1A,59.9674170505,Rej_Discount,2019_Mar_08_1254,on,Rej_02,
Run1,stim/WWmale23-5happy_edited.jpg,3.0,No,0,0,0,0,0,39,39,39,,,2,1.35996321308,1A,59.9674170505,Rej_Discount,2019_Mar_08_1254,on,Rej_02,
Run1,,,,0,0,0,0,,,,,,,,,1A,59.9674170505,Rej_Discount,2019_Mar_08_1254,on,Rej_02,
Run2,stim/73_smile_edited.jpg,4.0,No,0,1,1,1,0,0,0,0,space,2.51614155314,2,0.830951835194,1A,59.9674170505,Rej_Discount,2019_Mar_08_1254,on,Rej_02,
Run2,stim/cc_11_edited.jpg,1.5,Yes,0,1,1,1,0,1,1,1,,,2,1.31629600348,1A,59.9674170505,Rej_Discount,2019_Mar_08_1254,on,Rej_02,
Run2,stim/cc_17_edited.jpg,4.5,Yes,0,1,1,1,0,2,2,2,,,2,1.46045141423,1A,59.9674170505,Rej_Discount,2019_Mar_08_1254,on,Rej_02,
Run2,stim/cc_29_edited.jpg,2.5,No,0,1,1,1,0,3,3,3,,,2,1.41551463904,1A,59.9674170505,Rej_Discount,2019_Mar_08_1254,on,Rej_02,
Run2,stim/edited_61_smile.jpg,3.0,Yes,0,1,1,1,0,4,4,4,,,2,1.22061703625,1A,59.9674170505,Rej_Discount,2019_Mar_08_1254,on,Rej_02,
Run2,stim/EMBfemale21-3happy_edited.jpg,3.0,Yes,0,1,1,1,0,5,5,5,,,2,1.17216298585,1A,59.9674170505,Rej_Discount,2019_Mar_08_1254,on,Rej_02,
Run2,stim/EMImale23-2happy_edited.jpg,3.5,No,0,1,1,1,0,6,6,6,,,2,0.939277940008,1A,59.9674170505,Rej_Discount,2019_Mar_08_1254,on,Rej_02,
Run2,stim/EMImale23happy_edited.jpg,2.0,No,0,1,1,1,0,7,7,7,,,2,0.911239885385,1A,59.9674170505,Rej_Discount,2019_Mar_08_1254,on,Rej_02,
Run2,stim/EMImale24-2happy_edited.jpg,4.0,No,0,1,1,1,0,8,8,8,,,2,0.970349640607,1A,59.9674170505,Rej_Discount,2019_Mar_08_1254,on,Rej_02,
Run2,stim/EMWfemale22happy_edited.jpg,4.0,Yes,0,1,1,1,0,9,9,9,,,1,0.826935379981,1A,59.9674170505,Rej_Discount,2019_Mar_08_1254,on,Rej_02,
Run2,stim/EMWmale23-4happy_edited.jpg,2.0,No,0,1,1,1,0,10,10,10,,,2,1.10595398898,1A,59.9674170505,Rej_Discount,2019_Mar_08_1254,on,Rej_02,
Run2,stim/EMBfemale22happy_edited.jpg,3.5,Yes,0,1,1,1,0,11,11,11,,,2,1.13018210273,1A,59.9674170505,Rej_Discount,2019_Mar_08_1254,on,Rej_02,
Run2,stim/Female_Creative_Commons_Stockvault_13.jpg,2.0,No,0,1,1,1,0,12,12,12,,,1,1.29591577449,1A,59.9674170505,Rej_Discount,2019_Mar_08_1254,on,Rej_02,
Run2,stim/Female_Creative_Commons_Stockvault_14.jpg,2.5,No,0,1,1,1,0,13,13,13,,,2,1.02299618104,1A,59.9674170505,Rej_Discount,2019_Mar_08_1254,on,Rej_02,
Run2,stim/Female_Creative_Commons_Stockvault_17.jpg,4.0,No,0,1,1,1,0,14,14,14,,,2,0.878903595434,1A,59.9674170505,Rej_Discount,2019_Mar_08_1254,on,Rej_02,
Run2,stim/Female_Creative_Commons_Stockvault_19.jpg,4.5,Yes,0,1,1,1,0,15,15,15,,,2,1.08387001664,1A,59.9674170505,Rej_Discount,2019_Mar_08_1254,on,Rej_02,
Run2,stim/Female_Creative_Commons_Freeimages_2.jpg,2.0,No,0,1,1,1,0,16,16,16,,,1,1.06905665553,1A,59.9674170505,Rej_Discount,2019_Mar_08_1254,on,Rej_02,
Run2,stim/Flicker_2_cc20_edited.jpg,1.5,No,0,1,1,1,0,17,17,17,,,2,1.19688374829,1A,59.9674170505,Rej_Discount,2019_Mar_08_1254,on,Rej_02,
Run2,stim/Flicker_2_cc23_edited.jpg,2.5,No,0,1,1,1,0,18,18,18,,,1,1.33866268898,1A,59.9674170505,Rej_Discount,2019_Mar_08_1254,on,Rej_02,
Run2,stim/Flicker_2_cc25_edited.jpg,3.0,No,0,1,1,1,0,19,19,19,,,1,1.09952591895,1A,59.9674170505,Rej_Discount,2019_Mar_08_1254,on,Rej_02,
Run2,stim/IMG_1163_edited.jpg,4.0,No,0,1,1,1,0,20,20,20,,,1,1.16246178785,1A,59.9674170505,Rej_Discount,2019_Mar_08_1254,on,Rej_02,
Run2,stim/IMG_1184_edited.jpg,3.0,Yes,0,1,1,1,0,21,21,21,,,2,0.598943542274,1A,59.9674170505,Rej_Discount,2019_Mar_08_1254,on,Rej_02,
Run2,stim/IMG_1344_edited.jpg,2.0,Yes,0,1,1,1,0,22,22,22,,,2,0.731728223389,1A,59.9674170505,Rej_Discount,2019_Mar_08_1254,on,Rej_02,
Run2,stim/Flicker_2_cc33_edited.jpg,4.0,No,0,1,1,1,0,23,23,23,,,1,0.979341101051,1A,59.9674170505,Rej_Discount,2019_Mar_08_1254,on,Rej_02,
Run2,stim/IMG_1148_edited.jpg,4.0,No,0,1,1,1,0,24,24,24,,,2,0.721244821201,1A,59.9674170505,Rej_Discount,2019_Mar_08_1254,on,Rej_02,
Run2,stim/Male_Creative_Commons_Stockvault_3.jpg,2.0,No,0,1,1,1,0,25,25,25,,,2,1.05230193517,1A,59.9674170505,Rej_Discount,2019_Mar_08_1254,on,Rej_02,
Run2,stim/Male_Creative_Commons_Freeimages_17.jpg,2.0,No,0,1,1,1,0,26,26,26,,,2,1.08423919213,1A,59.9674170505,Rej_Discount,2019_Mar_08_1254,on,Rej_02,
Run2,stim/Male_Creative_Commons_Freeimages_18.jpg,2.0,No,0,1,1,1,0,27,27,27,,,2,0.540721425521,1A,59.9674170505,Rej_Discount,2019_Mar_08_1254,on,Rej_02,
Run2,stim/pitt-15_edited.jpg,3.5,No,0,1,1,1,0,28,28,28,,,2,0.567042052106,1A,59.9674170505,Rej_Discount,2019_Mar_08_1254,on,Rej_02,
Run2,stim/Silk_Rudick_F25_edited.jpg,3.0,Yes,0,1,1,1,0,29,29,29,,,2,0.843671439408,1A,59.9674170505,Rej_Discount,2019_Mar_08_1254,on,Rej_02,
Run2,stim/Silk_Rudick_F28_edited.jpg,3.5,No,0,1,1,1,0,30,30,30,,,2,1.37072217507,1A,59.9674170505,Rej_Discount,2019_Mar_08_1254,on,Rej_02,
Run2,stim/Silk_Rudick_pitt-7_edited.jpg,5.5,Yes,0,1,1,1,0,31,31,31,,,1,1.14320588018,1A,59.9674170505,Rej_Discount,2019_Mar_08_1254,on,Rej_02,
Run2,stim/Silk_Rudick_pitt-9_edited.jpg,3.0,No,0,1,1,1,0,32,32,32,,,1,0.94819009148,1A,59.9674170505,Rej_Discount,2019_Mar_08_1254,on,Rej_02,
Run2,stim/WBmale27happy_edited.jpg,4.0,Yes,0,1,1,1,0,33,33,33,,,2,0.588856062923,1A,59.9674170505,Rej_Discount,2019_Mar_08_1254,on,Rej_02,
Run2,stim/WBmale23-2happy_Edited.jpg,3.0,No,0,1,1,1,0,34,34,34,,,2,0.923020844575,1A,59.9674170505,Rej_Discount,2019_Mar_08_1254,on,Rej_02,
Run2,stim/WBmale23happy_edited.jpg,2.0,No,0,1,1,1,0,35,35,35,,,2,0.609319955101,1A,59.9674170505,Rej_Discount,2019_Mar_08_1254,on,Rej_02,
Run2,stim/WBmale26-2happy_edited.jpg,2.5,No,0,1,1,1,0,36,36,36,,,2,0.522653286362,1A,59.9674170505,Rej_Discount,2019_Mar_08_1254,on,Rej_02,
Run2,stim/WWmale23-5happy_edited.jpg,3.5,Yes,0,1,1,1,0,37,37,37,,,2,0.867384200346,1A,59.9674170505,Rej_Discount,2019_Mar_08_1254,on,Rej_02,
Run2,stim/WWmale23-6happy_edited.jpg,3.5,Yes,0,1,1,1,0,38,38,38,,,2,0.805008781526,1A,59.9674170505,Rej_Discount,2019_Mar_08_1254,on,Rej_02,
Run2,stim/WWmale23-7happy_edited.jpg,3.0,No,0,1,1,1,0,39,39,39,,,2,1.06159756885,1A,59.9674170505,Rej_Discount,2019_Mar_08_1254,on,Rej_02,
Run2,,,,0,1,1,1,,,,,,,,,1A,59.9674170505,Rej_Discount,2019_Mar_08_1254,on,Rej_02,
